{
  "standards": [
    {
      "id": "adam/adamig-1-2",
      "role": "primary"
    },
    {
      "id": "sdtmig/3-3",
      "role": "companion"
    }
  ],
  "rules": {
    "CDISC-AD0053": {
      "Authorities": [
        {
          "Organization": "CDISC",
          "Standards": [
            {
              "Name": "ADaMIG",
              "Version": "1.0",
              "References": [
                {
                  "Origin": "ADaM Conformance Rules",
                  "Rule_Identifier": {
                    "Id": "CR53",
                    "Version": "1"
                  },
                  "Version": "5.0"
                }
              ]
            },
            {
              "Name": "ADaMIG",
              "Version": "1.1",
              "References": [
                {
                  "Origin": "ADaM Conformance Rules",
                  "Rule_Identifier": {
                    "Id": "CR53",
                    "Version": "1"
                  },
                  "Version": "5.0"
                }
              ]
            },
            {
              "Name": "ADaMIG",
              "Version": "1.2",
              "References": [
                {
                  "Origin": "ADaM Conformance Rules",
                  "Rule_Identifier": {
                    "Id": "CR53",
                    "Version": "1"
                  },
                  "Version": "5.0"
                }
              ]
            },
            {
              "Name": "ADaMIG",
              "Version": "1.3",
              "References": [
                {
                  "Origin": "ADaM Conformance Rules",
                  "Rule_Identifier": {
                    "Id": "CR53",
                    "Version": "1"
                  },
                  "Version": "5.0"
                }
              ]
            }
          ]
        }
      ],
      "Core": {
        "Id": "CDISC-AD0053",
        "Status": "Published",
        "Version": "1"
      },
      "Description": "Raise an error when a record's USUBJID does not have a matching record in SDTM.DM",
      "Executability": "Fully Executable",
      "Scope": {
        "Domains": {
          "Include": [
            "ALL"
          ]
        }
      },
      "Match_Datasets": [
        {
          "Name": "DM",
          "Keys": [
            "USUBJID"
          ],
          "Join_Type": "left"
        }
      ],
      "Check": {
        "expression": "var_exists(DM.USUBJID) and empty(DM.USUBJID)"
      },
      "Outcome": {
        "Message": "This record's USUBJID value was not found in SDTM.DM",
        "Output_Variables": [
          "DM.USUBJID"
        ]
      }
    },
    "CDISC-AD0084": {
      "Authorities": [
        {
          "Organization": "CDISC",
          "Standards": [
            {
              "Name": "ADaMIG",
              "Version": "1.0",
              "References": [
                {
                  "Origin": "ADaM Conformance Rules",
                  "Rule_Identifier": {
                    "Id": "CR84",
                    "Version": "1"
                  },
                  "Version": "5.0"
                }
              ]
            },
            {
              "Name": "ADaMIG",
              "Version": "1.1",
              "References": [
                {
                  "Origin": "ADaM Conformance Rules",
                  "Rule_Identifier": {
                    "Id": "CR84",
                    "Version": "1"
                  },
                  "Version": "5.0"
                }
              ]
            },
            {
              "Name": "ADaMIG",
              "Version": "1.2",
              "References": [
                {
                  "Origin": "ADaM Conformance Rules",
                  "Rule_Identifier": {
                    "Id": "CR84",
                    "Version": "1"
                  },
                  "Version": "5.0"
                }
              ]
            },
            {
              "Name": "ADaMIG",
              "Version": "1.3",
              "References": [
                {
                  "Origin": "ADaM Conformance Rules",
                  "Rule_Identifier": {
                    "Id": "CR84",
                    "Version": "1"
                  },
                  "Version": "5.0"
                }
              ]
            }
          ]
        }
      ],
      "Core": {
        "Id": "CDISC-AD0084",
        "Status": "Published",
        "Version": "1"
      },
      "Description": "Raise an error when TRTEDT and the maximum value across all TRxxEDT variables are both populated and TRTEDT does not equal that maximum, where xx is an integer [01-99, zero-padded]",
      "Executability": "Fully Executable",
      "Scope": {
        "Data_Structures": {
          "Include": [
            "SUBJECT LEVEL ANALYSIS DATASET"
          ]
        }
      },
      "Operations": [
        {
          "id": "$trxx_max",
          "expression": "row_max(name_pattern=\"^TR(0[1-9]|[1-9][0-9])EDT$\")"
        }
      ],
      "Check": {
        "expression": "not empty(TRTEDT) and not empty($trxx_max) and TRTEDT != $trxx_max"
      },
      "Outcome": {
        "Message": "TRTEDT does not equal the maximum value among the TRxxEDT variables",
        "Output_Variables": [
          "TRTEDT",
          "$trxx_max"
        ]
      }
    },
    "CDISC-AD0131": {
      "Authorities": [
        {
          "Organization": "CDISC",
          "Standards": [
            {
              "Name": "ADaMIG",
              "Version": "1.0",
              "References": [
                {
                  "Origin": "ADaM Conformance Rules",
                  "Rule_Identifier": {
                    "Id": "CR131",
                    "Version": "1"
                  },
                  "Version": "5.0"
                }
              ]
            },
            {
              "Name": "ADaMIG",
              "Version": "1.2",
              "References": [
                {
                  "Origin": "ADaM Conformance Rules",
                  "Rule_Identifier": {
                    "Id": "CR131",
                    "Version": "1"
                  },
                  "Version": "5.0"
                }
              ]
            }
          ]
        }
      ],
      "Core": {
        "Id": "CDISC-AD0131",
        "Status": "Published",
        "Version": "1"
      },
      "Description": "Raise an error when, within a given value of PARAMCD, BASETYPE is populated for at least one record and is not populated for at least one record.",
      "Executability": "Fully Executable",
      "Scope": {
        "Data_Structures": {
          "Include": [
            "BASIC DATA STRUCTURE"
          ]
        }
      },
      "Requirements": {
        "Variables": {
          "All": [
            "BASETYPE"
          ]
        }
      },
      "Grouping": {
        "Variables": [
          "PARAMCD"
        ]
      },
      "Operations": [
        {
          "id": "$basetype_mixed",
          "expression": "has_mixed_emptiness_within_group(BASETYPE, group=[PARAMCD])"
        }
      ],
      "Check": {
        "expression": "$basetype_mixed == true"
      },
      "Outcome": {
        "Message": "BASETYPE is populated for some records and not populated for others within this PARAMCD.",
        "Output_Variables": [
          "PARAMCD",
          "BASETYPE"
        ]
      }
    },
    "CDISC-AD0204": {
      "Authorities": [
        {
          "Organization": "CDISC",
          "Standards": [
            {
              "Name": "ADaMIG",
              "Version": "1.0",
              "References": [
                {
                  "Origin": "ADaM Conformance Rules",
                  "Rule_Identifier": {
                    "Id": "CR204",
                    "Version": "1"
                  },
                  "Version": "5.0"
                }
              ]
            },
            {
              "Name": "ADaMIG",
              "Version": "1.1",
              "References": [
                {
                  "Origin": "ADaM Conformance Rules",
                  "Rule_Identifier": {
                    "Id": "CR204",
                    "Version": "1"
                  },
                  "Version": "5.0"
                }
              ]
            },
            {
              "Name": "ADaMIG",
              "Version": "1.2",
              "References": [
                {
                  "Origin": "ADaM Conformance Rules",
                  "Rule_Identifier": {
                    "Id": "CR204",
                    "Version": "1"
                  },
                  "Version": "5.0"
                }
              ]
            },
            {
              "Name": "ADaMIG",
              "Version": "1.3",
              "References": [
                {
                  "Origin": "ADaM Conformance Rules",
                  "Rule_Identifier": {
                    "Id": "CR204",
                    "Version": "1"
                  },
                  "Version": "5.0"
                }
              ]
            }
          ]
        }
      ],
      "Core": {
        "Id": "CDISC-AD0204",
        "Status": "Published",
        "Version": "1"
      },
      "Description": "Raise an error when, for a subject, DM has a value for AGE and ADSL.AGE does not equal that value",
      "Executability": "Fully Executable",
      "Scope": {
        "Data_Structures": {
          "Include": [
            "SUBJECT LEVEL ANALYSIS DATASET"
          ]
        }
      },
      "Match_Datasets": [
        {
          "Name": "DM",
          "Keys": [
            "USUBJID"
          ]
        }
      ],
      "Check": {
        "expression": "var_exists(DM.AGE) and AGE != DM.AGE"
      },
      "Outcome": {
        "Message": "For this subject, ADSL.AGE does not equal DM.AGE",
        "Output_Variables": [
          "AGE",
          "DM.AGE"
        ]
      }
    },
    "CDISC-AD0210": {
      "Authorities": [
        {
          "Organization": "CDISC",
          "Standards": [
            {
              "Name": "ADaMIG",
              "Version": "1.0",
              "References": [
                {
                  "Origin": "ADaM Conformance Rules",
                  "Rule_Identifier": {
                    "Id": "CR210",
                    "Version": "1"
                  },
                  "Version": "5.0"
                }
              ]
            },
            {
              "Name": "ADaMIG",
              "Version": "1.1",
              "References": [
                {
                  "Origin": "ADaM Conformance Rules",
                  "Rule_Identifier": {
                    "Id": "CR210",
                    "Version": "1"
                  },
                  "Version": "5.0"
                }
              ]
            },
            {
              "Name": "ADaMIG",
              "Version": "1.2",
              "References": [
                {
                  "Origin": "ADaM Conformance Rules",
                  "Rule_Identifier": {
                    "Id": "CR210",
                    "Version": "1"
                  },
                  "Version": "5.0"
                }
              ]
            },
            {
              "Name": "ADaMIG",
              "Version": "1.3",
              "References": [
                {
                  "Origin": "ADaM Conformance Rules",
                  "Rule_Identifier": {
                    "Id": "CR210",
                    "Version": "1"
                  },
                  "Version": "5.0"
                }
              ]
            }
          ]
        }
      ],
      "Core": {
        "Id": "CDISC-AD0210",
        "Status": "Published",
        "Version": "1"
      },
      "Description": "Raise an error when, for a subject, DM has a value for ARM and ADSL.ARM does not equal that value",
      "Executability": "Fully Executable",
      "Scope": {
        "Data_Structures": {
          "Include": [
            "SUBJECT LEVEL ANALYSIS DATASET"
          ]
        }
      },
      "Match_Datasets": [
        {
          "Name": "DM",
          "Keys": [
            "USUBJID"
          ]
        }
      ],
      "Check": {
        "expression": "var_exists(DM.ARM) and ARM != DM.ARM"
      },
      "Outcome": {
        "Message": "For this subject, ADSL.ARM does not equal DM.ARM",
        "Output_Variables": [
          "ARM",
          "DM.ARM"
        ]
      }
    },
    "CDISC-AD0353": {
      "Authorities": [
        {
          "Organization": "CDISC",
          "Standards": [
            {
              "Name": "ADaMIG",
              "Version": "1.1",
              "References": [
                {
                  "Origin": "ADaM Conformance Rules",
                  "Rule_Identifier": {
                    "Id": "CR353",
                    "Version": "1"
                  },
                  "Version": "5.0"
                }
              ]
            },
            {
              "Name": "ADaMIG",
              "Version": "1.2",
              "References": [
                {
                  "Origin": "ADaM Conformance Rules",
                  "Rule_Identifier": {
                    "Id": "CR353",
                    "Version": "1"
                  },
                  "Version": "5.0"
                }
              ]
            }
          ]
        }
      ],
      "Core": {
        "Id": "CDISC-AD0353",
        "Status": "Published",
        "Version": "1"
      },
      "Description": "Raise an error when BASETYPE is present, ByIND is populated, and ByIND does not equal the AyIND value where ABLFL equals Y, for the same subject, parameter, and BASETYPE",
      "Executability": "Fully Executable",
      "Scope": {
        "Data_Structures": {
          "Include": [
            "BASIC DATA STRUCTURE"
          ]
        }
      },
      "Operations": [
        {
          "id": "$baseline_ayind",
          "expression": "max(\"AyIND\", group=[USUBJID, PARAMCD, BASETYPE], filter=filter(ABLFL=\"Y\"))"
        }
      ],
      "Check": {
        "expression": "var_exists(\"BASETYPE\") and not empty(ByIND) and ByIND != $baseline_ayind"
      },
      "Outcome": {
        "Message": "BASETYPE is present and ByIND is populated, but ByIND does not equal the AyIND value where ABLFL equals Y, for this subject, parameter, and BASETYPE.",
        "Output_Variables": [
          "PARAMCD",
          "BASETYPE",
          "ByIND",
          "$baseline_ayind"
        ]
      },
      "wildcards": {
        "y": {
          "min": 1,
          "max": 99
        }
      }
    },
    "CDISC-AD0367": {
      "Authorities": [
        {
          "Organization": "CDISC",
          "Standards": [
            {
              "Name": "ADaMIG",
              "Version": "1.1",
              "References": [
                {
                  "Origin": "ADaM Conformance Rules",
                  "Rule_Identifier": {
                    "Id": "CR367",
                    "Version": "1"
                  },
                  "Version": "5.0"
                }
              ]
            },
            {
              "Name": "ADaMIG",
              "Version": "1.2",
              "References": [
                {
                  "Origin": "ADaM Conformance Rules",
                  "Rule_Identifier": {
                    "Id": "CR367",
                    "Version": "1"
                  },
                  "Version": "5.0"
                }
              ]
            },
            {
              "Name": "ADaMIG",
              "Version": "1.3",
              "References": [
                {
                  "Origin": "ADaM Conformance Rules",
                  "Rule_Identifier": {
                    "Id": "CR367",
                    "Version": "1"
                  },
                  "Version": "5.0"
                }
              ]
            }
          ]
        }
      ],
      "Core": {
        "Id": "CDISC-AD0367",
        "Status": "Published",
        "Version": "1"
      },
      "Description": "Raise an error when DM.ACTARM is present and ACTARM does not equal DM.ACTARM for the same subject",
      "Executability": "Fully Executable",
      "Scope": {
        "Data_Structures": {
          "Include": [
            "SUBJECT LEVEL ANALYSIS DATASET"
          ]
        }
      },
      "Match_Datasets": [
        {
          "Name": "DM",
          "Keys": [
            "USUBJID"
          ]
        }
      ],
      "Check": {
        "expression": "var_exists(DM.ACTARM) and ACTARM != DM.ACTARM"
      },
      "Outcome": {
        "Message": "ACTARM does not equal DM.ACTARM for this subject.",
        "Output_Variables": [
          "ACTARM",
          "DM.ACTARM"
        ]
      }
    },
    "CDISC-AD0581": {
      "Authorities": [
        {
          "Organization": "CDISC",
          "Standards": [
            {
              "Name": "ADaMIG",
              "Version": "1.1",
              "References": [
                {
                  "Origin": "ADaM Conformance Rules",
                  "Rule_Identifier": {
                    "Id": "CR581",
                    "Version": "1"
                  },
                  "Version": "5.0"
                }
              ]
            },
            {
              "Name": "ADaMIG",
              "Version": "1.2",
              "References": [
                {
                  "Origin": "ADaM Conformance Rules",
                  "Rule_Identifier": {
                    "Id": "CR581",
                    "Version": "1"
                  },
                  "Version": "5.0"
                }
              ]
            },
            {
              "Name": "ADaMIG",
              "Version": "1.3",
              "References": [
                {
                  "Origin": "ADaM Conformance Rules",
                  "Rule_Identifier": {
                    "Id": "CR581",
                    "Version": "2"
                  },
                  "Version": "5.0"
                }
              ]
            }
          ]
        }
      ],
      "Core": {
        "Id": "CDISC-AD0581",
        "Status": "Published",
        "Version": "2"
      },
      "Description": "Raise an error when none of TRTP, TRTPGy, TRTA, TRTAGy, ARM, ACTARM, TRTxxP, TRTxxA, TRTSEQP, TRTSEQA, TRxxPGy, TRxxAGy, TSEQPGy, or TSEQAGy are present, where xx is an integer [01-99, zero-padded] and y is an integer [1-99, not zero-padded].",
      "Executability": "Fully Executable",
      "Scope": {
        "Data_Structures": {
          "Include": [
            "BASIC DATA STRUCTURE",
            "MEDICAL DEVICE BASIC DATA STRUCTURE"
          ]
        }
      },
      "Check": {
        "expression": "not var_exists(\"TRTP\") and not var_exists(\"TRTPGy\") and not var_exists(\"TRTA\") and not var_exists(\"TRTAGy\") and not var_exists(\"ARM\") and not var_exists(\"ACTARM\") and not var_exists(\"TRTxxP\") and not var_exists(\"TRTxxA\") and not var_exists(\"TRTSEQP\") and not var_exists(\"TRTSEQA\") and not var_exists(\"TRxxPGy\") and not var_exists(\"TRxxAGy\") and not var_exists(\"TSEQPGy\") and not var_exists(\"TSEQAGy\")"
      },
      "Outcome": {
        "Message": "None of TRTP, TRTPGy, TRTA, TRTAGy, ARM, ACTARM, TRTxxP, TRTxxA, TRTSEQP, TRTSEQA, TRxxPGy, TRxxAGy, TSEQPGy, or TSEQAGy are present, where xx is an integer [01-99, zero-padded] and y is an integer [1-99, not zero-padded]",
        "Output_Variables": []
      },
      "wildcards": {
        "xx": {
          "min": 1,
          "max": 99
        },
        "y": {
          "min": 1,
          "max": 99
        }
      }
    },
    "CDISC-AD0591": {
      "Authorities": [
        {
          "Organization": "CDISC",
          "Standards": [
            {
              "Name": "ADaMIG",
              "Version": "1.2",
              "References": [
                {
                  "Origin": "ADaM Conformance Rules",
                  "Rule_Identifier": {
                    "Id": "CR591",
                    "Version": "1"
                  },
                  "Version": "5.0"
                }
              ]
            },
            {
              "Name": "ADaMIG",
              "Version": "1.3",
              "References": [
                {
                  "Origin": "ADaM Conformance Rules",
                  "Rule_Identifier": {
                    "Id": "CR591",
                    "Version": "1"
                  },
                  "Version": "5.0"
                }
              ]
            }
          ]
        }
      ],
      "Core": {
        "Id": "CDISC-AD0591",
        "Status": "Published",
        "Version": "1"
      },
      "Description": "Raise an error when, for the same subject, a variable's value does not match the value of the identically named variable in ADSL, considering only records where both values are populated.",
      "Executability": "Fully Executable",
      "ExecutabilityHint": {
        "Category": "fully executable",
        "Detail": "Declared-token template. The Expansion block binds &VAR to every variable this dataset shares by name with ADSL, and the engine emits one concrete rule per shared variable, each comparing that variable against ADSL's after an inner join on STUDYID / USUBJID — the CDISC-CG0218 / PMDA-AD0208 shape. The join keys are not expanded over: compared against themselves after merging on them they are equal by construction. When ADSL is not among the loaded datasets, or the resolver cannot enumerate other datasets, the rule is skipped with a stated reason rather than expanded to nothing. NARROWING, stated so it is not invisible: the two non_empty guards are carried over verbatim from the pre-expansion rule. The ADSL-side guard suppresses rows whose ADSL value is genuinely empty; a subject absent from ADSL is dropped by the inner join and is reported by CDISC-AD0256, the ADSL-membership rule (D-TA-2). The dataset-side guard means a value present in ADSL but missing here is NOT reported, which ADaMIG 2.3.1 arguably does require; logged as SHEET-ISSUES entry 35 for the sheet author rather than changed here."
      },
      "Scope": {
        "Domains": {
          "Include": [
            "ALL"
          ]
        }
      },
      "Match_Datasets": [
        {
          "Name": "ADSL",
          "Keys": [
            "STUDYID",
            "USUBJID"
          ]
        }
      ],
      "Check": {
        "expression": "not empty(`&VAR`) and not empty(`ADSL.&VAR`) and var_exists(`&VAR`) and var_exists(`ADSL.&VAR`) and `&VAR` != `ADSL.&VAR`"
      },
      "Outcome": {
        "Message": "For this subject, this variable's value does not match the value of the identically named variable in ADSL.",
        "Output_Variables": [
          "&VAR",
          "ADSL.&VAR"
        ]
      },
      "Expansion": [
        {
          "token": "&VAR",
          "over": "shared_variables",
          "with": "ADSL"
        }
      ]
    },
    "CDISC-AD0597": {
      "Authorities": [
        {
          "Organization": "CDISC",
          "Standards": [
            {
              "Name": "ADaMIG",
              "Version": "1.2",
              "References": [
                {
                  "Origin": "ADaM Conformance Rules",
                  "Rule_Identifier": {
                    "Id": "CR597",
                    "Version": "1"
                  },
                  "Version": "5.0"
                }
              ]
            },
            {
              "Name": "ADaMIG",
              "Version": "1.3",
              "References": [
                {
                  "Origin": "ADaM Conformance Rules",
                  "Rule_Identifier": {
                    "Id": "CR597",
                    "Version": "1"
                  },
                  "Version": "5.0"
                }
              ]
            }
          ]
        }
      ],
      "Core": {
        "Id": "CDISC-AD0597",
        "Status": "Published",
        "Version": "1"
      },
      "Description": "Raise an error when, on a BDS or OCCDS record, APEREDTM does not equal the ADSL variable APxxEDTM for the same USUBJID (where xx equals the record's APERIOD value).",
      "Executability": "Fully Executable",
      "Scope": {
        "Data_Structures": {
          "Include": [
            "BASIC DATA STRUCTURE",
            "OCCURRENCE DATA STRUCTURE"
          ]
        }
      },
      "Match_Datasets": [
        {
          "Name": "ADSL",
          "Keys": [
            "USUBJID"
          ]
        }
      ],
      "Check": {
        "expression": "not empty(APEREDTM) and not empty(ADSL.AP${APERIOD:%02d}EDTM) and APEREDTM != ADSL.AP${APERIOD:%02d}EDTM"
      },
      "Outcome": {
        "Message": "On a given record, the value of APEREDTM is not equal to the value of variable APxxEDTM where xx equals the value of APERIOD",
        "Output_Variables": [
          "APERIOD",
          "APEREDTM",
          "ADSL.AP${*}EDTM"
        ]
      }
    },
    "CDISC-AD0614": {
      "Authorities": [
        {
          "Organization": "CDISC",
          "Standards": [
            {
              "Name": "ADaMIG",
              "Version": "1.2",
              "References": [
                {
                  "Origin": "ADaM Conformance Rules",
                  "Rule_Identifier": {
                    "Id": "CR614",
                    "Version": "1"
                  },
                  "Version": "5.0"
                }
              ]
            },
            {
              "Name": "ADaMIG",
              "Version": "1.3",
              "References": [
                {
                  "Origin": "ADaM Conformance Rules",
                  "Rule_Identifier": {
                    "Id": "CR614",
                    "Version": "1"
                  },
                  "Version": "5.0"
                }
              ]
            }
          ]
        }
      ],
      "Core": {
        "Id": "CDISC-AD0614",
        "Status": "Published",
        "Version": "1"
      },
      "Description": "Raise an error when, on a BDS or OCCDS record where APHASEN is not present, PHEDTM does not equal any ADSL variable PHwEDTM (for any w) for the same USUBJID.",
      "Executability": "Fully Executable",
      "Scope": {
        "Data_Structures": {
          "Include": [
            "BASIC DATA STRUCTURE",
            "OCCURRENCE DATA STRUCTURE"
          ]
        }
      },
      "Match_Datasets": [
        {
          "Name": "ADSL",
          "Keys": [
            "USUBJID"
          ]
        }
      ],
      "Check": {
        "expression": "not var_exists(\"APHASEN\") and not empty(PHEDTM) and PHEDTM not in ADSL.PH${*}EDTM"
      },
      "Outcome": {
        "Message": "On a given record, APHASEN is not present and the value of PHEDTM does not equal any PHwEDTM variable",
        "Output_Variables": [
          "PHEDTM"
        ]
      }
    },
    "CDISC-AD0615": {
      "Authorities": [
        {
          "Organization": "CDISC",
          "Standards": [
            {
              "Name": "ADaMIG",
              "Version": "1.2",
              "References": [
                {
                  "Origin": "ADaM Conformance Rules",
                  "Rule_Identifier": {
                    "Id": "CR615",
                    "Version": "1"
                  },
                  "Version": "5.0"
                }
              ]
            },
            {
              "Name": "ADaMIG",
              "Version": "1.3",
              "References": [
                {
                  "Origin": "ADaM Conformance Rules",
                  "Rule_Identifier": {
                    "Id": "CR615",
                    "Version": "1"
                  },
                  "Version": "5.0"
                }
              ]
            }
          ]
        }
      ],
      "Core": {
        "Id": "CDISC-AD0615",
        "Status": "Published",
        "Version": "1"
      },
      "Description": "Raise an error when, on a BDS or OCCDS record where APHASEN is populated, PHEDTM does not equal the ADSL variable PHwEDTM for the same USUBJID (where w equals the record's APHASEN value).",
      "Executability": "Fully Executable",
      "Scope": {
        "Data_Structures": {
          "Include": [
            "BASIC DATA STRUCTURE",
            "OCCURRENCE DATA STRUCTURE"
          ]
        }
      },
      "Match_Datasets": [
        {
          "Name": "ADSL",
          "Keys": [
            "USUBJID"
          ]
        }
      ],
      "Check": {
        "expression": "not empty(APHASEN) and not empty(PHEDTM) and PHEDTM != ADSL.PH${APHASEN:%d}EDTM"
      },
      "Outcome": {
        "Message": "On a given record, APHASEN is populated and the value of PHEDTM is not equal to the value of variable PHwEDTM where w equals the value of APHASEN",
        "Output_Variables": [
          "APHASEN",
          "PHEDTM",
          "ADSL.PH${*}EDTM"
        ]
      }
    }
  }
}
