<?xml version="1.0" encoding="UTF-8"?>
<ODM ODMVersion="1.3.2" FileType="Snapshot" FileOID="DEF.KEYS"
     CreationDateTime="2026-01-01T00:00:00">
  <Study OID="S1">
    <MetaDataVersion OID="MDV.1" Name="Define Keys E2E" DefineVersion="2.0.0"
                     StandardName="SDTM-IG" StandardVersion="3.4">
      <ItemGroupDef OID="IG.LB" Name="LB" Domain="LB" Repeating="Yes" Purpose="Tabulation"
                    SASDatasetName="LB">
        <ItemRef ItemOID="IT.LB.STUDYID" OrderNumber="1" Mandatory="Yes" Role="Identifier"/>
        <ItemRef ItemOID="IT.LB.USUBJID" OrderNumber="2" Mandatory="Yes" Role="Identifier"
                 KeySequence="1"/>
        <ItemRef ItemOID="IT.LB.LBTESTCD" OrderNumber="3" Mandatory="Yes" Role="Topic"
                 KeySequence="3"/>
        <ItemRef ItemOID="IT.LB.LBORRES" OrderNumber="4" Mandatory="No" Role="Result Qualifier"/>
        <!-- LBDTC is declared LAST in ItemRef order but is the SECOND key: KeySequence order
             (USUBJID, LBDTC, LBTESTCD) differs from ItemRef order (USUBJID, LBTESTCD, LBDTC),
             so a key list that is not sorted by KeySequence is visibly wrong. -->
        <ItemRef ItemOID="IT.LB.LBDTC" OrderNumber="5" Mandatory="No" Role="Timing"
                 KeySequence="2"/>
      </ItemGroupDef>
      <ItemDef OID="IT.LB.STUDYID" Name="STUDYID" DataType="text" Length="20">
        <Description><TranslatedText xml:lang="en">Study Identifier</TranslatedText></Description>
      </ItemDef>
      <ItemDef OID="IT.LB.USUBJID" Name="USUBJID" DataType="text" Length="20">
        <Description><TranslatedText xml:lang="en">Unique Subject Identifier</TranslatedText></Description>
      </ItemDef>
      <ItemDef OID="IT.LB.LBTESTCD" Name="LBTESTCD" DataType="text" Length="8">
        <Description><TranslatedText xml:lang="en">Lab Test Short Name</TranslatedText></Description>
      </ItemDef>
      <ItemDef OID="IT.LB.LBORRES" Name="LBORRES" DataType="text" Length="20">
        <Description><TranslatedText xml:lang="en">Result in Original Units</TranslatedText></Description>
      </ItemDef>
      <ItemDef OID="IT.LB.LBDTC" Name="LBDTC" DataType="datetime">
        <Description><TranslatedText xml:lang="en">Date/Time of Specimen Collection</TranslatedText></Description>
      </ItemDef>
    </MetaDataVersion>
  </Study>
</ODM>
