{
  "source_document": "ADaM Implementation Guide for Medical Devices (ADaMIG-MD) v1.0 Final, 2021-11-29",
  "variables": [
    {
      "var_name": "STUDYID",
      "label": "Study Identifier",
      "type": "Char",
      "core": "Req",
      "scope": "ADDL",
      "section": "3.2.1.1 Identifier Variables",
      "guidance": "DI.STUDYID"
    },
    {
      "var_name": "SPDEVID",
      "label": "Sponsor Device Identifier",
      "type": "Char",
      "core": "Req",
      "scope": "ADDL",
      "section": "3.2.1.1 Identifier Variables",
      "guidance": "DI.SPDEVID"
    },
    {
      "var_name": "USUBJID",
      "label": "Unique Subject Identifier",
      "type": "Char",
      "core": "Cond",
      "scope": "ADDL",
      "section": "3.2.1.1 Identifier Variables",
      "guidance": "DR.USUBJID. USUBJID is required when USUBJID is linked to one or more devices (SPDEVID) in SDTM DR dataset."
    },
    {
      "var_name": "DEVGRy",
      "label": "Pooled Device Group y",
      "type": "Char",
      "core": "Perm",
      "scope": "ADDL",
      "section": "3.2.1.2 Device Grouping Variables",
      "guidance": "Character description of a grouping or pooling of devices for analysis purposes. If the algorithm of device grouping is based on DI.DEVTYP or DI.MODEL, DEVTYGy or MODELGy should be used."
    },
    {
      "var_name": "DEVGRyN",
      "label": "Pooled Device Group y (N)",
      "type": "Num",
      "core": "Perm",
      "scope": "ADDL",
      "section": "3.2.1.2 Device Grouping Variables",
      "guidance": "Numeric representation of grouping y of the pooled device group. There must be a one-to-one relationship between DEVGRyN and DEVGRy within a study. DEVGRyN cannot be present unless DEVGRy is also present. When both present, on a given record either both must be populated or both must be null."
    },
    {
      "var_name": "DEVTYGy",
      "label": "Pooled Device Type Group y",
      "type": "Char",
      "core": "Perm",
      "scope": "ADDL",
      "section": "3.2.1.2 Device Grouping Variables",
      "guidance": "Character description of a grouping or pooling of devices for analysis purposes by device type. The value of DI.DIVAL where DI.DIPARMCD='DEVTYPE' is always used to create the device type grouping variable."
    },
    {
      "var_name": "DEVTYGyN",
      "label": "Pooled Device Type Group y (N)",
      "type": "Num",
      "core": "Perm",
      "scope": "ADDL",
      "section": "3.2.1.2 Device Grouping Variables",
      "guidance": "Numeric representation of grouping y of the pooled device type group. There must be a one-to-one relationship between DEVTYGyN and DEVTYGy within a study. DEVTYGyN cannot be present unless DEVTYGy is also present. When both present, on a given record either both must be populated or both must be null."
    },
    {
      "var_name": "MODELGy",
      "label": "Pooled Device Model Group y",
      "type": "Char",
      "core": "Perm",
      "scope": "ADDL",
      "section": "3.2.1.2 Device Grouping Variables",
      "guidance": "Character description of a grouping or pooling of devices for analysis purposes by device model. The value of DI.DIVAL where DI.DIPARMCD='MODEL' is always used to create the device model grouping variable."
    },
    {
      "var_name": "MODELGyN",
      "label": "Pooled Device Model Group y (N)",
      "type": "Num",
      "core": "Perm",
      "scope": "ADDL",
      "section": "3.2.1.2 Device Grouping Variables",
      "guidance": "Numeric representation of grouping y of the pooled device type group. There must be a one-to-one relationship between MODELGyN and MODELGy within a study. MODELGyN cannot be present unless MODELGy is also present. When both present, on a given record either both must be populated or both must be null."
    },
    {
      "var_name": "DEVSDT",
      "label": "Date of First Exposure to Device",
      "type": "Num",
      "core": "Req",
      "scope": "ADDL",
      "section": "3.2.1.3 Timing and Status Flag Variables",
      "guidance": "Date of first exposure to the device for the subject. 'First exposure' to device is defined in the SAP. Similar to the TRTSDT variable from ADSL, DEVSDT is used for analysis when merged onto other device analysis datasets."
    },
    {
      "var_name": "DEVEDT",
      "label": "Date of Last Exposure to Device",
      "type": "Num",
      "core": "Req",
      "scope": "ADDL",
      "section": "3.2.1.3 Timing and Status Flag Variables",
      "guidance": "Date of last exposure to the device for the subject. 'Last exposure' to device is defined in the SAP. Similar to the TRTEDT variable from ADSL, DEVEDT is used for analysis when merged onto other device analysis datasets."
    },
    {
      "var_name": "DEVAFL",
      "label": "Device Active Flag",
      "type": "Char",
      "core": "Perm",
      "scope": "ADDL",
      "section": "3.2.1.3 Timing and Status Flag Variables",
      "guidance": "DEVAFL indicates whether device is active at a time point specified in the SAP. Values must be Y or N (or Y and missing). It is permissible to use DEVAyFL if multiple flags are needed, with labels 'Device Active y Flag'. A simple derivation might be to set this flag to Y when DEVEDT is missing."
    },
    {
      "var_name": "DEVIPDT",
      "label": "Date Device Implanted",
      "type": "Num",
      "core": "Cond",
      "scope": "ADDL",
      "section": "3.2.1.3 Timing and Status Flag Variables",
      "guidance": "Date device implanted in the subject. DEVIPDT is required when device is implanted."
    },
    {
      "var_name": "DEVXPDT",
      "label": "Date Device Explanted",
      "type": "Num",
      "core": "Cond",
      "scope": "ADDL",
      "section": "3.2.1.3 Timing and Status Flag Variables",
      "guidance": "Date device explanted from the subject. DEVXPDT is required when device is explanted or DEVIPDT is present."
    },
    {
      "var_name": "DEVONDT",
      "label": "Date Device Turned On",
      "type": "Num",
      "core": "Cond",
      "scope": "ADDL",
      "section": "3.2.1.3 Timing and Status Flag Variables",
      "guidance": "Date device is turned on. DEVONDT is required when the device is able to be turned on. For multiple occurrences, either collapse into 1 record in ADDL (algorithm defined in SAP) or use DEVONyDT."
    },
    {
      "var_name": "DEVOFDT",
      "label": "Date Device Turned Off",
      "type": "Num",
      "core": "Cond",
      "scope": "ADDL",
      "section": "3.2.1.3 Timing and Status Flag Variables",
      "guidance": "Date device is turned off. DEVOFDT is required when the device is able to be turned off, or DEVONDT is present. For multiple occurrences, either collapse into 1 record in ADDL (algorithm defined in SAP) or use DEVOFyDT."
    },
    {
      "var_name": "DEVRPDT",
      "label": "Date Device Repositioned",
      "type": "Num",
      "core": "Cond",
      "scope": "ADDL",
      "section": "3.2.1.3 Timing and Status Flag Variables",
      "guidance": "DEVRPDT indicates date when device was repositioned. DEVRPDT is required when a device could be repositioned and included in analysis. For multiple occurrences, either collapse into 1 record in ADDL (algorithm defined in SAP) or use DEVRPyDT."
    },
    {
      "var_name": "DEVMDDT",
      "label": "Date Device Modified",
      "type": "Num",
      "core": "Cond",
      "scope": "ADDL",
      "section": "3.2.1.3 Timing and Status Flag Variables",
      "guidance": "DEVMDDT indicates date when device was modified for a subject in a study. What qualifies as device modification is defined by study protocol and SAP. DEVMDDT is required when the device could be modified and included in analysis. For multiple occurrences, either collapse into 1 record in ADDL (algorithm defined in SAP) or use DEVMDyDT."
    },
    {
      "var_name": "AGEDST",
      "label": "Subject Age at First Exposure to Device",
      "type": "Num",
      "core": "Perm",
      "scope": "ADDL",
      "section": "3.2.1.4 Device-based Demographic Variables",
      "guidance": "Age of the subject at DEVSDT. Used only if age at device exposure start date is needed for analysis. Otherwise, use ADSL.AGE."
    },
    {
      "var_name": "AGEDSTU",
      "label": "Age at First Exposure to Device Unit",
      "type": "Char",
      "core": "Cond",
      "scope": "ADDL",
      "section": "3.2.1.4 Device-based Demographic Variables",
      "guidance": "Age unit usually is same as the ADSL.AGEU. If it is different, then AGEDSTU is required. Codelist: AGEU."
    },
    {
      "var_name": "SPDEVID",
      "label": "Sponsor Device Identifier",
      "type": "Char",
      "core": "Req",
      "scope": "MDOCCDS",
      "section": "3.2.3 MDOCCDS Variables",
      "guidance": "ADDL.SPDEVID."
    },
    {
      "var_name": "USUBJID",
      "label": "Unique Subject Identifier",
      "type": "Char",
      "core": "Cond",
      "scope": "MDOCCDS",
      "section": "3.2.3 MDOCCDS Variables",
      "guidance": "ADDL.USUBJID. USUBJID is required when subject-device relationship is defined in ADDL."
    },
    {
      "var_name": "SPDEVID",
      "label": "Sponsor Device Identifier",
      "type": "Char",
      "core": "Req",
      "scope": "MDBDS",
      "section": "3.2.4 MDBDS Variables",
      "guidance": "ADDL.SPDEVID."
    },
    {
      "var_name": "USUBJID",
      "label": "Unique Subject Identifier",
      "type": "Char",
      "core": "Cond",
      "scope": "MDBDS",
      "section": "3.2.4 MDBDS Variables",
      "guidance": "ADDL.USUBJID. USUBJID is required when subject-device relationship is defined in ADDL."
    },
    {
      "var_name": "ASEQ",
      "label": "Analysis Sequence Number",
      "type": "Num",
      "core": "Perm",
      "scope": "MDBDS",
      "section": "3.2.4 MDBDS Variables",
      "guidance": "Sequence number given to ensure uniqueness of records within an ADaM dataset. ASEQ uniquely indexes records within a subject, or within a device, or within a subject and device; within an ADaM dataset. Useful for traceability when the dataset is used as input to another ADaM dataset."
    }
  ],
  "conformance_rules": [
    {
      "rule_id": "CR01",
      "scope": "ADDL",
      "description": "ADDL must contain 1 record per device per subject combination.",
      "section": "1.3.1 / 3.1.1"
    },
    {
      "rule_id": "CR02",
      "scope": "ADDL",
      "description": "In a study, there is only 1 dataset in the class 'DEVICE LEVEL ANALYSIS DATASET', and its name is ADDL.",
      "section": "1.3.1"
    },
    {
      "rule_id": "CR03",
      "scope": "ADDL",
      "description": "USUBJID is conditionally required: required when USUBJID is linked to one or more devices (SPDEVID) in SDTM DR dataset.",
      "section": "3.2.1.1"
    },
    {
      "rule_id": "CR04",
      "scope": "ADDL",
      "description": "DEVGRyN cannot be present unless DEVGRy is also present. There must be a one-to-one relationship between DEVGRyN and DEVGRy within a study. When both are present, on a given record either both must be populated or both must be null.",
      "section": "3.2.1.2"
    },
    {
      "rule_id": "CR05",
      "scope": "ADDL",
      "description": "DEVTYGyN cannot be present unless DEVTYGy is also present. There must be a one-to-one relationship between DEVTYGyN and DEVTYGy within a study. When both are present, on a given record either both must be populated or both must be null.",
      "section": "3.2.1.2"
    },
    {
      "rule_id": "CR06",
      "scope": "ADDL",
      "description": "MODELGyN cannot be present unless MODELGy is also present. There must be a one-to-one relationship between MODELGyN and MODELGy within a study. When both are present, on a given record either both must be populated or both must be null.",
      "section": "3.2.1.2"
    },
    {
      "rule_id": "CR07",
      "scope": "ADDL",
      "description": "DEVAFL (and DEVAyFL) character flag variables whose names end in FL can have at most two possible non-missing values: Y or N. If it satisfies the analysis need, Y and missing can be used instead of Y and N.",
      "section": "3.2.1.3"
    },
    {
      "rule_id": "CR08",
      "scope": "ADDL",
      "description": "DEVIPDT is required when device is implanted.",
      "section": "3.2.1.3"
    },
    {
      "rule_id": "CR09",
      "scope": "ADDL",
      "description": "DEVXPDT is required when device is explanted or DEVIPDT is present.",
      "section": "3.2.1.3"
    },
    {
      "rule_id": "CR10",
      "scope": "ADDL",
      "description": "DEVONDT is required when the device is able to be turned on.",
      "section": "3.2.1.3"
    },
    {
      "rule_id": "CR11",
      "scope": "ADDL",
      "description": "DEVOFDT is required when the device is able to be turned off, or DEVONDT is present.",
      "section": "3.2.1.3"
    },
    {
      "rule_id": "CR12",
      "scope": "ADDL",
      "description": "DEVRPDT is required when a device could be repositioned and included in analysis.",
      "section": "3.2.1.3"
    },
    {
      "rule_id": "CR13",
      "scope": "ADDL",
      "description": "DEVMDDT is required when the device could be modified and included in analysis.",
      "section": "3.2.1.3"
    },
    {
      "rule_id": "CR14",
      "scope": "ADDL",
      "description": "AGEDSTU is required when age unit differs from ADSL.AGEU.",
      "section": "3.2.1.4"
    },
    {
      "rule_id": "CR15",
      "scope": "ADSL",
      "description": "ADSL is required for medical device studies only when subject information is collected and needs to be reported. If ADSL is not included, an explanation should be included in the ADRG.",
      "section": "1.3.2"
    },
    {
      "rule_id": "CR16",
      "scope": "MDOCCDS",
      "description": "SPDEVID is a required identifier variable. USUBJID is conditionally required when subject-device relationship is defined in ADDL.",
      "section": "1.3.3 / 3.2.3"
    },
    {
      "rule_id": "CR17",
      "scope": "MDOCCDS",
      "description": "DETERM and DEDECOD are required variables in MDOCCDS. This differs from OCCDS(ADVERSE EVENT) where AETERM, AEDECOD, and AEBODSYS are required.",
      "section": "3.2.3"
    },
    {
      "rule_id": "CR18",
      "scope": "MDOCCDS",
      "description": "The following OCCDS qualifiers would not generally be used in DE/MDOCCDS: --BODSYS, --SER, --ACN, --REL, --RELNST, --PATT, --OUT, --SCAN, --SCONG, --SDISAB, --SDTH, --SHOSP, --SLIFE, --SOD, --SMIE, --CONTRT, --TOX, --TOXGR.",
      "section": "3.2.3"
    },
    {
      "rule_id": "CR19",
      "scope": "MDOCCDS",
      "description": "The SDTM input dataset for MDOCCDS is always Device Events (DE), with additional information from related datasets such as SUPPDE and Findings About Events or Interventions (FA).",
      "section": "3.1.2"
    },
    {
      "rule_id": "CR20",
      "scope": "MDBDS",
      "description": "SPDEVID is a required key variable. USUBJID is conditionally required when subject-device relationship is defined in ADDL. Structure is 1 or more records per subject (optional), per device, per analysis parameter, and per timepoint (optional).",
      "section": "1.3.4 / 3.2.4"
    },
    {
      "rule_id": "CR21",
      "scope": "MDBDS",
      "description": "ASEQ uniquely indexes records within a subject, or within a device, or within a subject and device; within an ADaM dataset.",
      "section": "3.2.4"
    },
    {
      "rule_id": "CR22",
      "scope": "ADDL",
      "description": "When the relationship between subjects and devices is not collected, ADDL must be included.",
      "section": "1.3.1"
    },
    {
      "rule_id": "CR23",
      "scope": "ADDL",
      "description": "If multiple records per device are needed in a device exposure analysis dataset, this information does not belong in ADDL. Instead, it should be put into a BDS structure.",
      "section": "3.2.1.3 (end)"
    }
  ],
  "dataset_structures": [
    {
      "name": "ADDL",
      "description": "Device-Level Analysis Dataset",
      "class": "DEVICE LEVEL ANALYSIS DATASET",
      "subclass": null,
      "structure": "One record per device per subject (or one record per device when subject data not collected)",
      "key_variables": ["SPDEVID", "USUBJID (conditional)"],
      "section": "3.1.1"
    },
    {
      "name": "MDOCCDS",
      "description": "Medical Device Occurrence Data Structure",
      "class": "MEDICAL DEVICE OCCURRENCE DATA STRUCTURE",
      "subclass": null,
      "structure": "Usually 1 record per each record in the corresponding SDTM domain (optional: per coding path, per Analysis Period and/or Phase)",
      "key_variables": ["SPDEVID", "USUBJID (conditional)", "--SEQ"],
      "section": "3.1.2"
    },
    {
      "name": "MDBDS",
      "description": "Medical Device Basic Data Structure",
      "class": "MEDICAL DEVICE BASIC DATA STRUCTURE",
      "subclass": null,
      "structure": "One record per subject (optional), per device, per parameter (optional: per timepoint)",
      "key_variables": ["SPDEVID", "USUBJID (conditional)", "PARAMCD"],
      "section": "3.1.3"
    },
    {
      "name": "MDTTE",
      "description": "Medical Device Time-to-Event",
      "class": "MEDICAL DEVICE BASIC DATA STRUCTURE",
      "subclass": "MEDICAL DEVICE TIME-TO-EVENT",
      "structure": "One record per subject (optional), per device, per parameter, per timepoint (optional)",
      "key_variables": ["SPDEVID", "USUBJID (conditional)", "PARAMCD"],
      "section": "3.1.3"
    }
  ]
}
