{
  "source": "CDISC ADaM BDS for Population Pharmacokinetics Implementation Guide v1.0 (2023-10-06)",
  "dataset": "ADPPK",
  "dataset_metadata": {
    "data_structure_name": "ADPPK",
    "data_structure_description": "Basic Data Structure Population Pharmacokinetic Analysis",
    "class": "BASIC DATA STRUCTURE",
    "subclass": "POPULATION PHARMACOKINETIC ANALYSIS",
    "structure": "One record per subject per parameter (analyte) per analysis timepoint per event (dosing or observation)",
    "keys": ["USUBJID", "AFRLT", "DVID", "EVID"],
    "cdisc_notes": "Dataset designed to support PPK. Sourced from SDTM (e.g., PC, DM, EX, LB) and ADaM (e.g., ADSL and ADEX datasets)."
  },
  "variables": [
    {
      "var_name": "PROJID",
      "label": "Project Identifier",
      "type": "Char",
      "core": "Perm",
      "scope": "ADPPK",
      "section": "3.2",
      "guidance": "Text representing protocol or compound name."
    },
    {
      "var_name": "PROJIDN",
      "label": "Project Identifier (N)",
      "type": "Num",
      "core": "Perm",
      "scope": "ADPPK",
      "section": "3.2",
      "guidance": "Unique numerical representation of PROJID. The numeric versions of the primary/character variables can be assigned from its corresponding character pair variable."
    },
    {
      "var_name": "STUDYID",
      "label": "Study Identifier",
      "type": "Char",
      "core": "Req",
      "scope": "ADPPK",
      "section": "3.2",
      "guidance": "STUDYID. Must be identical to the ADSL variable."
    },
    {
      "var_name": "STUDYIDN",
      "label": "Study Identifier (N)",
      "type": "Num",
      "core": "Perm",
      "scope": "ADPPK",
      "section": "3.2",
      "guidance": "Unique numerical representation of STUDYID. The numeric versions of the primary/character variables can be assigned from its corresponding character pair variable."
    },
    {
      "var_name": "PART",
      "label": "Part of the Study",
      "type": "Num",
      "core": "Cond",
      "scope": "ADPPK",
      "section": "3.2",
      "guidance": "As defined per protocol. Required when study has more than 1 part (e.g., part A, dose escalation and part B, dose evaluation). In SDTM it is mapped in STUDYID by some sponsor companies."
    },
    {
      "var_name": "SUBJTYP",
      "label": "Subject Type",
      "type": "Num",
      "core": "Perm",
      "scope": "ADPPK",
      "section": "3.2",
      "guidance": "Unique numerical representation of subject type."
    },
    {
      "var_name": "SUBJTYPC",
      "label": "Subject Type (C)",
      "type": "Char",
      "core": "Perm",
      "scope": "ADPPK",
      "section": "3.2",
      "guidance": "Unique character representation of SUBJTYP. For first-in-human studies, the value can be 'Healthy volunteers'."
    },
    {
      "var_name": "USUBJID",
      "label": "Unique Subject Identifier",
      "type": "Char",
      "core": "Req",
      "scope": "ADPPK",
      "section": "3.2",
      "guidance": "Must be identical to the ADSL variable."
    },
    {
      "var_name": "USUBJIDN",
      "label": "Unique Subject Identifier (N)",
      "type": "Num",
      "core": "Req",
      "scope": "ADPPK",
      "section": "3.2",
      "guidance": "Unique numerical representation of USUBJID."
    },
    {
      "var_name": "SUBJID",
      "label": "Subject Identifier for the Study",
      "type": "Char",
      "core": "Perm",
      "scope": "ADPPK",
      "section": "3.2",
      "guidance": "Must be identical to the ADSL variable."
    },
    {
      "var_name": "SUBJIDN",
      "label": "Subject Identifier for the Study (N)",
      "type": "Num",
      "core": "Perm",
      "scope": "ADPPK",
      "section": "3.2",
      "guidance": "Unique numerical representation of SUBJID. The numeric versions of the primary/character variables can be assigned from its corresponding character pair variable."
    },
    {
      "var_name": "SITEID",
      "label": "Study Site Identifier",
      "type": "Char",
      "core": "Perm",
      "scope": "ADPPK",
      "section": "3.2",
      "guidance": "Must be identical to the ADSL variable."
    },
    {
      "var_name": "SITEIDN",
      "label": "Study Site Identifier (N)",
      "type": "Num",
      "core": "Perm",
      "scope": "ADPPK",
      "section": "3.2",
      "guidance": "Unique numerical representation of SITEID. The numeric versions of the primary/character variables can be assigned from its corresponding character pair variable."
    },
    {
      "var_name": "RECSEQ",
      "label": "Record Sequence",
      "type": "Num",
      "core": "Perm",
      "scope": "ADPPK",
      "section": "3.2",
      "guidance": "Derived sequence for the whole dataset. Sequential values should start with 1 on the first non-header row and increment by 1 for each subsequent row. Often used for convenience and merging of PK and PD datasets. Can also be useful for tracking outlier exclusion."
    },
    {
      "var_name": "AFRLT",
      "label": "Actual Rel Time from First Dose",
      "type": "Num",
      "core": "Req",
      "scope": "ADPPK",
      "section": "3.2",
      "guidance": "Actual elapsed time (for sample point or start of sampling interval) from first exposure to study treatment. Could be negative. Derived from (ADTM of the current event/record) - (ADTM of the first dosing event/record of the subject)."
    },
    {
      "var_name": "RLTU",
      "label": "Relative Time Unit",
      "type": "Char",
      "core": "Perm",
      "scope": "ADPPK",
      "section": "3.2",
      "guidance": "Units for all reference times AFRLT, APRLT, NFRLT, NPRLT. Add the unit here or in the time variable label."
    },
    {
      "var_name": "APRLT",
      "label": "Actual Rel Time from Previous Dose",
      "type": "Num",
      "core": "Perm",
      "scope": "ADPPK",
      "section": "3.2",
      "guidance": "Derived from (ADTM of the current event/record) - (ADTM of the previous dosing event/record of the subject)."
    },
    {
      "var_name": "NFRLT",
      "label": "Nominal Rel Time from First Dose",
      "type": "Num",
      "core": "Perm",
      "scope": "ADPPK",
      "section": "3.2",
      "guidance": "Planned elapsed time (for sample point or start of sampling interval) from first exposure to study treatment. For PK it will be in the PC dataset."
    },
    {
      "var_name": "NPRLT",
      "label": "Nominal Rel Time from Previous Dose",
      "type": "Num",
      "core": "Perm",
      "scope": "ADPPK",
      "section": "3.2",
      "guidance": "For PK it can be derived from planned elapsed time from reference exposure to study treatment or equivalent variable that has nominal time in the PC dataset."
    },
    {
      "var_name": "OCC",
      "label": "Occasion",
      "type": "Num",
      "core": "Perm",
      "scope": "ADPPK",
      "section": "3.2",
      "guidance": "Occasion is a grouping variable. It groups dose and concentration observations for a particular dosing. The implementation is taken directly from the specs/protocol and defined by the modeler. This is a popPK software variable."
    },
    {
      "var_name": "EXCLF",
      "label": "Record Exclusion",
      "type": "Num",
      "core": "Cond",
      "scope": "ADPPK",
      "section": "3.2",
      "guidance": "It can be captured prior to the modeling or after some analysis, with possible iterations and adjustments. Possible reasons: BLOQ, biological implausibility, IWER > threshold, incorrect dosing information."
    },
    {
      "var_name": "EXCLFCOM",
      "label": "Comment for the Record Exclusion",
      "type": "Char",
      "core": "Cond",
      "scope": "ADPPK",
      "section": "3.2",
      "guidance": "It can be captured prior to the modeling or after some analysis. Possible reasons: BLOQ, biological implausibility, outlier based on variability metrics, incorrect dosing information, day 1 pre-dose sample. Can also be coded through numbers connected with different reasons."
    },
    {
      "var_name": "FLGREAS",
      "label": "Identification of Data Issue Reason",
      "type": "Num",
      "core": "Perm",
      "scope": "ADPPK",
      "section": "3.2",
      "guidance": "Captures primary reason for identifying the record for data issues (e.g., dose time imputation flags). Sequential number starting with 1, increments with each unique reason."
    },
    {
      "var_name": "FLGREASC",
      "label": "Identification of Data Issue Reason (C)",
      "type": "Char",
      "core": "Perm",
      "scope": "ADPPK",
      "section": "3.2",
      "guidance": "Character version of FLGREAS."
    },
    {
      "var_name": "EVID",
      "label": "Event ID",
      "type": "Num",
      "core": "Req",
      "scope": "ADPPK",
      "section": "3.2",
      "guidance": "EVID=1 is Dosing Event, EVID=0 is observation. It can be expanded to other numbers as defined in the dataset specs. This is a popPK software variable."
    },
    {
      "var_name": "DVID",
      "label": "Dependent Variable Name",
      "type": "Char",
      "core": "Perm",
      "scope": "ADPPK",
      "section": "3.2",
      "guidance": "Analyte/drug name/other measurements (e.g., PC.PCTEST for PK, EX or ADEX for dose, ADLB for labs)."
    },
    {
      "var_name": "DVIDN",
      "label": "Dependent Variable Name (N)",
      "type": "Num",
      "core": "Perm",
      "scope": "ADPPK",
      "section": "3.2",
      "guidance": "Unique numerical representation of DVID. Convention is normally 0=dose, 1=for the first observation of interest, etc. The numeric versions of the primary/character variables can be assigned from its corresponding character pair variable."
    },
    {
      "var_name": "CMT",
      "label": "Compartment",
      "type": "Num",
      "core": "Perm",
      "scope": "ADPPK",
      "section": "3.2",
      "guidance": "Derived based on the specifications from modeler. This is a popPK software variable."
    },
    {
      "var_name": "DV",
      "label": "Dependent Variable Result",
      "type": "Num",
      "core": "Req",
      "scope": "ADPPK",
      "section": "3.2",
      "guidance": "Numeric result of dependent variable applicable to observation events. DV is a widely used notation in the field of pharmacometrics since its inception for the value of dependent variable (observation). This is a copy of AVAL."
    },
    {
      "var_name": "AVAL",
      "label": "Analysis Value",
      "type": "Num",
      "core": "Cond",
      "scope": "ADPPK",
      "section": "3.2",
      "guidance": "Numeric analysis value described by PARAM."
    },
    {
      "var_name": "AVALU",
      "label": "Dependent Variable Unit",
      "type": "Char",
      "core": "Perm",
      "scope": "ADPPK",
      "section": "3.2",
      "guidance": "Unit for DV and AVAL."
    },
    {
      "var_name": "USTRESC",
      "label": "Result or Finding in Standard Format",
      "type": "Char",
      "core": "Perm",
      "scope": "ADPPK",
      "section": "3.2",
      "guidance": "Character results/findings of dependent variable in a standard format. Purpose is to capture which records are BLQ or ALQ in the DV column. U is a replacement for the dataset name (e.g., USTRESC equals PCSTRESC for PC records)."
    },
    {
      "var_name": "MDV",
      "label": "Missing Dependent Variable Result",
      "type": "Num",
      "core": "Req",
      "scope": "ADPPK",
      "section": "3.2",
      "guidance": "If DV=. then MDV=1. When DV is missing for observation then MDV=1, when EVID=1 then MDV=1. Controlled terms: 0, 1. This is a popPK software variable."
    },
    {
      "var_name": "AULOQ",
      "label": "Analysis Upper Limit of Quantitation",
      "type": "Num",
      "core": "Perm",
      "scope": "ADPPK",
      "section": "3.2",
      "guidance": "In assay report."
    },
    {
      "var_name": "ALLOQ",
      "label": "Analysis Lower Limit of Quantitation",
      "type": "Num",
      "core": "Perm",
      "scope": "ADPPK",
      "section": "3.2",
      "guidance": "LLOQ of PK, PD and any other sources."
    },
    {
      "var_name": "BLQFL",
      "label": "Below Lower Limit of Quant Flag",
      "type": "Char",
      "core": "Cond",
      "scope": "ADPPK",
      "section": "3.2",
      "guidance": "N, Y. Set to Y when the analysis value is below the limit of quantification. Controlled terms: N, Y."
    },
    {
      "var_name": "BLQFN",
      "label": "Below Lower Limit of Quant Flag (N)",
      "type": "Num",
      "core": "Perm",
      "scope": "ADPPK",
      "section": "3.2",
      "guidance": "0=N, 1=Y. The numeric versions of the primary/character variables can be assigned from its corresponding character pair variable. Controlled terms: 0, 1."
    },
    {
      "var_name": "ALQFL",
      "label": "Above the Upper Limit of Quant Flag",
      "type": "Char",
      "core": "Cond",
      "scope": "ADPPK",
      "section": "3.2",
      "guidance": "N, Y. Set to Y when the analysis value is above the limit of quantification. Controlled terms: N, Y."
    },
    {
      "var_name": "ALQFN",
      "label": "Above the Upper Limit of Quant Flag (N)",
      "type": "Num",
      "core": "Perm",
      "scope": "ADPPK",
      "section": "3.2",
      "guidance": "0=N, 1=Y. The numeric versions of the primary/character variables can be assigned from its corresponding character pair variable. Controlled terms: 0, 1."
    },
    {
      "var_name": "AMT",
      "label": "Actual Amount of Dose Received (unit)",
      "type": "Num",
      "core": "Req",
      "scope": "ADPPK",
      "section": "3.2",
      "guidance": "Only populated on dosing records."
    },
    {
      "var_name": "DOSEA",
      "label": "Actual Treatment Dose (unit)",
      "type": "Num",
      "core": "Perm",
      "scope": "ADPPK",
      "section": "3.2",
      "guidance": "DOSEA represents the actual treatment dosage associated with the record. Could be amount (mg) or weight based dose (mg/kg). Units of AMT and DOSEA can be same or different. This is the actual numeric amount of the dose used for the population analysis and may differ from the EX.EXDOSE. Populated on all individual records as carry-forward."
    },
    {
      "var_name": "DOSETDD",
      "label": "Total Daily Amt of Dose Received (unit)",
      "type": "Num",
      "core": "Perm",
      "scope": "ADPPK",
      "section": "3.2",
      "guidance": "Used mostly for BID dosing schemes."
    },
    {
      "var_name": "DOSEDUR",
      "label": "Duration Of Dose Administration (unit)",
      "type": "Num",
      "core": "Perm",
      "scope": "ADPPK",
      "section": "3.2",
      "guidance": "Duration associated with infusion (IV, SC); distinct from TRTDURD, TRTDURM, and TRTDURY, which reference the duration of the entire study rather than the duration of a single treatment event. Derived from EXENDTC - EXSTDTC. The label should contain the unit of time. Usually same unit as time variables."
    },
    {
      "var_name": "RATE",
      "label": "Infusion Rate (unit)",
      "type": "Num",
      "core": "Perm",
      "scope": "ADPPK",
      "section": "3.2",
      "guidance": "Calculated as the amount of dose received divided by the dose duration. Certain modeling methods may require that RATE is set to a specific value. The label should contain the unit (e.g., mg/hr)."
    },
    {
      "var_name": "II",
      "label": "Dosing Interval (unit)",
      "type": "Num",
      "core": "Perm",
      "scope": "ADPPK",
      "section": "3.2",
      "guidance": "Describes the dosing frequency for multiple doses (e.g., 24 for QD, 12 for BID, if time unit is hours)."
    },
    {
      "var_name": "ADDL",
      "label": "Number Of Additional Doses",
      "type": "Num",
      "core": "Perm",
      "scope": "ADPPK",
      "section": "3.2",
      "guidance": "Number of additional doses like the current dosing event until the next captured dose. Commonly used for long-lasting studies with frequent dosing to keep the dataset manageable."
    },
    {
      "var_name": "SS",
      "label": "Steady State",
      "type": "Num",
      "core": "Perm",
      "scope": "ADPPK",
      "section": "3.2",
      "guidance": "A steady-state dose is a dose presumed to be the last of a series of implied doses, each exactly like the dose in question, given at a regular interval specified by II and leading to steady state by the time the steady-state dose is given."
    },
    {
      "var_name": "FORM",
      "label": "Drug Formulation",
      "type": "Char",
      "core": "Perm",
      "scope": "ADPPK",
      "section": "3.2",
      "guidance": "Type of formulation (e.g., tablet, capsule, aerosol); EX.EXDOSFRM or protocol. Codelist: FRM."
    },
    {
      "var_name": "FORMN",
      "label": "Drug Formulation (N)",
      "type": "Num",
      "core": "Perm",
      "scope": "ADPPK",
      "section": "3.2",
      "guidance": "Unique numerical representation of FORM. The numeric versions of the primary/character variables can be assigned from the corresponding character pair variable."
    },
    {
      "var_name": "ROUTE",
      "label": "Route of Administration",
      "type": "Char",
      "core": "Perm",
      "scope": "ADPPK",
      "section": "3.2",
      "guidance": "Route of treatment delivery. May be derived from EX.EXROUTE. Codelist: ROUTE."
    },
    {
      "var_name": "ROUTEN",
      "label": "Route of Administration (N)",
      "type": "Num",
      "core": "Perm",
      "scope": "ADPPK",
      "section": "3.2",
      "guidance": "Derived from ROUTE as one-on-one unique match. The numeric versions of the primary/character variables can be assigned from its corresponding character pair variable."
    },
    {
      "var_name": "ACYCLE",
      "label": "Analysis Cycle",
      "type": "Num",
      "core": "Perm",
      "scope": "ADPPK",
      "section": "3.2",
      "guidance": "Record-level identifier that reflects cycle and may be of particular importance for studies that examine concentrations in cancer patients from AVISIT or protocol."
    },
    {
      "var_name": "ACYCLEC",
      "label": "Analysis Cycle (C)",
      "type": "Char",
      "core": "Perm",
      "scope": "ADPPK",
      "section": "3.2",
      "guidance": "Derived from ACYCLE as one-on-one unique match. The character versions of the primary/character variables can be assigned from its corresponding numeric pair variable."
    },
    {
      "var_name": "COHORT",
      "label": "Cohort Subject Enrolled Into",
      "type": "Num",
      "core": "Perm",
      "scope": "ADPPK",
      "section": "3.2",
      "guidance": "Subject-level variable. Could be some sort of subpopulation."
    },
    {
      "var_name": "COHORTC",
      "label": "Cohort Subject Enrolled into (C)",
      "type": "Char",
      "core": "Perm",
      "scope": "ADPPK",
      "section": "3.2",
      "guidance": "Character representation of the COHORT variable. There must be a one-to-one mapping to COHORT."
    },
    {
      "var_name": "UDTC",
      "label": "Date and Time of the Event",
      "type": "Char",
      "core": "Perm",
      "scope": "ADPPK",
      "section": "3.2",
      "guidance": "Datetime associated with event ID represented in ISO 8601 character format. U is a replacement for the dataset name from where the value came from (e.g., UDTC equals PCDTC for PC records)."
    },
    {
      "var_name": "WT",
      "label": "Body Weight (unit)",
      "type": "Num",
      "core": "Perm",
      "scope": "ADPPK",
      "section": "3.3",
      "guidance": "Variable may be derived from VS.VSTEST and VS.VSSTRESN but may also be pulled in from other datasets. Weight is associated with sampling time. SDTM.VS or a Vital Signs analysis dataset."
    },
    {
      "var_name": "WTBL",
      "label": "Baseline Body Weight (unit)",
      "type": "Num",
      "core": "Perm",
      "scope": "ADPPK",
      "section": "3.3",
      "guidance": "Weight associated with the last assessment prior to dosing. Use flags for baseline. If the definition matches the SAP then use the variable in ADSL."
    },
    {
      "var_name": "HTBL",
      "label": "Baseline Body Height (unit)",
      "type": "Num",
      "core": "Perm",
      "scope": "ADPPK",
      "section": "3.3",
      "guidance": "Variable may be derived from baseline VS.VSTEST and VS.VSSTRESN. If the definition matches the SAP then use the variable in ADSL."
    },
    {
      "var_name": "BMIBL",
      "label": "Baseline Body Mass Index (unit)",
      "type": "Num",
      "core": "Perm",
      "scope": "ADPPK",
      "section": "3.3",
      "guidance": "May be derived from baseline VS or other datasets. ADSL.BMIBL for baseline and VS.BMI for time-varying or derived. If the definition matches the SAP then use the variable in ADSL."
    },
    {
      "var_name": "BSABL",
      "label": "Body Surface Area at Baseline (unit)",
      "type": "Num",
      "core": "Perm",
      "scope": "ADPPK",
      "section": "3.3",
      "guidance": "May be derived from baseline VS or other datasets. ADSL.BSABL for baseline and VS.BSA for time-varying or derived. If the definition matches the SAP then use the variable in ADSL."
    },
    {
      "var_name": "AGE",
      "label": "Age",
      "type": "Num",
      "core": "Perm",
      "scope": "ADPPK",
      "section": "3.3",
      "guidance": "DM.AGE or ADSL.AGE. If analysis needs require a derived age that does not match ADSL.AGE, then AAGE (Analysis Age) must be added."
    },
    {
      "var_name": "AGETPT",
      "label": "Age at Analysis Timepoint (unit)",
      "type": "Num",
      "core": "Perm",
      "scope": "ADPPK",
      "section": "3.3",
      "guidance": "Number of years between BRTHDT and ADT."
    },
    {
      "var_name": "SEX",
      "label": "Sex",
      "type": "Char",
      "core": "Req",
      "scope": "ADPPK",
      "section": "3.3",
      "guidance": "The sex of the subject is a required variable in ADSL; must be identical to ADSL.SEX. Codelist: SEX."
    },
    {
      "var_name": "SEXN",
      "label": "Sex (N)",
      "type": "Num",
      "core": "Perm",
      "scope": "ADPPK",
      "section": "3.3",
      "guidance": "Numeric version of SEX. Can be extended to other values beyond 1 and 2. Example values: 1=M, 2=F."
    },
    {
      "var_name": "RACE",
      "label": "Race",
      "type": "Char",
      "core": "Req",
      "scope": "ADPPK",
      "section": "3.3",
      "guidance": "The race of the subject is a required variable in ADSL; identical to ADSL.RACE. May categorize differently if analysis demands. Codelist: RACE."
    },
    {
      "var_name": "RACEN",
      "label": "Race (N)",
      "type": "Num",
      "core": "Perm",
      "scope": "ADPPK",
      "section": "3.3",
      "guidance": "Numeric version of RACE. Example: 1=American Indian or Alaska Native, 2=Asian, 3=Black/African American, 4=Native Hawaiian or Other Pacific Islander, 5=White. If races need to be categorized differently, use ARACE and ARACEN."
    },
    {
      "var_name": "ARACE",
      "label": "Analysis Race",
      "type": "Char",
      "core": "Perm",
      "scope": "ADPPK",
      "section": "3.3",
      "guidance": "To allow different definitions of race. For example, coding American Indian/Alaska Native and Native Hawaiian/Other Pacific Islander as 'Other'. Analysis-specific and could vary based on analysis needs."
    },
    {
      "var_name": "ARACEN",
      "label": "Analysis Race (N)",
      "type": "Num",
      "core": "Perm",
      "scope": "ADPPK",
      "section": "3.3",
      "guidance": "Numeric version of ARACE. Example: 1=White, 2=Black/African American, 3=Asian, 4=Other, 5=Unknown."
    },
    {
      "var_name": "AETHNIC",
      "label": "Analysis Ethnicity",
      "type": "Char",
      "core": "Perm",
      "scope": "ADPPK",
      "section": "3.3",
      "guidance": "Ethnicity as needed for analysis. May be derived."
    },
    {
      "var_name": "AETHNICN",
      "label": "Analysis Ethnicity (N)",
      "type": "Num",
      "core": "Perm",
      "scope": "ADPPK",
      "section": "3.3",
      "guidance": "Numeric version of AETHNIC."
    },
    {
      "var_name": "REGIONy",
      "label": "Geographic Region y",
      "type": "Char",
      "core": "Perm",
      "scope": "ADPPK",
      "section": "3.3",
      "guidance": "REGIONy is a permissible variable in ADSL."
    },
    {
      "var_name": "REGIONyN",
      "label": "Geographic Region y (N)",
      "type": "Num",
      "core": "Perm",
      "scope": "ADPPK",
      "section": "3.3",
      "guidance": "Numeric version of REGIONy."
    },
    {
      "var_name": "COUNTRY",
      "label": "Country",
      "type": "Char",
      "core": "Perm",
      "scope": "ADPPK",
      "section": "3.3",
      "guidance": "DM.COUNTRY or ADSL.COUNTRY."
    },
    {
      "var_name": "COUNTRYL",
      "label": "Country Full Name",
      "type": "Char",
      "core": "Perm",
      "scope": "ADPPK",
      "section": "3.3",
      "guidance": "COUNTRYL is a human-readable name of the DM.COUNTRY value."
    },
    {
      "var_name": "COUNTRYN",
      "label": "Country (N)",
      "type": "Num",
      "core": "Perm",
      "scope": "ADPPK",
      "section": "3.3",
      "guidance": "Numeric version of COUNTRY."
    },
    {
      "var_name": "CREATBL",
      "label": "Baseline Creatinine Serum (unit)",
      "type": "Num",
      "core": "Perm",
      "scope": "ADPPK",
      "section": "3.3",
      "guidance": "Use the baseline lab value for creatinine serum per the algorithm defined in the SAP."
    },
    {
      "var_name": "CRCLBL",
      "label": "Baseline Creatinine Clearance (unit)",
      "type": "Num",
      "core": "Perm",
      "scope": "ADPPK",
      "section": "3.3",
      "guidance": "Use the baseline lab value for creatinine clearance per the algorithm defined in the SAP. A formula may be suggested if the value does not exist in the lab dataset."
    },
    {
      "var_name": "EGFRBL",
      "label": "Baseline eGFR (unit)",
      "type": "Num",
      "core": "Perm",
      "scope": "ADPPK",
      "section": "3.3",
      "guidance": "Use the baseline lab value for eGFR per the algorithm defined in the SAP. A formula may be suggested if the value does not exist in the lab dataset."
    },
    {
      "var_name": "TBILBL",
      "label": "Baseline Total Bilirubin (unit)",
      "type": "Num",
      "core": "Perm",
      "scope": "ADPPK",
      "section": "3.3",
      "guidance": "Use the baseline lab value for total bilirubin per the algorithm defined in the SAP."
    },
    {
      "var_name": "ASTBL",
      "label": "Baseline Aspartate transaminase (unit)",
      "type": "Num",
      "core": "Perm",
      "scope": "ADPPK",
      "section": "3.3",
      "guidance": "Use the baseline lab value for aspartate transaminase per the algorithm defined in the SAP."
    },
    {
      "var_name": "ALTBL",
      "label": "Baseline Alanine transaminase (unit)",
      "type": "Num",
      "core": "Perm",
      "scope": "ADPPK",
      "section": "3.3",
      "guidance": "Use the baseline lab value for alanine transaminase per the algorithm defined in the SAP."
    }
  ],
  "standard_bds_variables_referenced": [
    {
      "var_name": "AGE",
      "note": "AGE or AAGE, and AGEU - standard BDS/ADSL variable commonly used in PPK"
    },
    {
      "var_name": "SEX",
      "note": "Standard BDS/ADSL variable commonly used in PPK"
    },
    {
      "var_name": "RACE",
      "note": "Standard BDS/ADSL variable commonly used in PPK"
    },
    {
      "var_name": "TRTP",
      "note": "TRTP and TRTPN - standard BDS/ADSL variable commonly used in PPK"
    },
    {
      "var_name": "TRTA",
      "note": "TRTA and TRTAN - standard BDS/ADSL variable commonly used in PPK"
    },
    {
      "var_name": "DOSEP",
      "note": "DOSEP and DOSEU - standard BDS/ADSL variable commonly used in PPK"
    },
    {
      "var_name": "APERIOD",
      "note": "APERIOD and APERIODC - standard BDS/ADSL variable commonly used in PPK"
    },
    {
      "var_name": "AVISIT",
      "note": "AVISIT and AVISITN - standard BDS/ADSL variable commonly used in PPK"
    },
    {
      "var_name": "ADY",
      "note": "ADY, ADT, ATM, and ADTM - standard BDS/ADSL variables commonly used in PPK"
    },
    {
      "var_name": "ASTDT",
      "note": "ASTDT, ASTTM, and ASTDTM - standard BDS/ADSL variables commonly used in PPK"
    },
    {
      "var_name": "AENDT",
      "note": "AENDT, AENTM, and AENDTM - standard BDS/ADSL variables commonly used in PPK"
    },
    {
      "var_name": "ATPT",
      "note": "ATPT and ATPTN - standard BDS/ADSL variables commonly used in PPK"
    },
    {
      "var_name": "PARAM",
      "note": "PARAM, PARAMCD, and PARAMN - standard BDS/ADSL variables commonly used in PPK"
    },
    {
      "var_name": "DTYPE",
      "note": "Standard BDS variable commonly used in PPK"
    }
  ],
  "conformance_rules": [
    {
      "rule_id": "CR01",
      "type": "structural",
      "description": "ADPPK has one record per subject per parameter (analyte) per analysis timepoint per event (dosing or observation)."
    },
    {
      "rule_id": "CR02",
      "type": "required_variable",
      "description": "Required variables (Core=Req): STUDYID, USUBJID, USUBJIDN, AFRLT, EVID, DV, MDV, AMT, SEX, RACE."
    },
    {
      "rule_id": "CR03",
      "type": "identity",
      "description": "STUDYID must be identical to the ADSL variable."
    },
    {
      "rule_id": "CR04",
      "type": "identity",
      "description": "USUBJID must be identical to the ADSL variable."
    },
    {
      "rule_id": "CR05",
      "type": "identity",
      "description": "SUBJID must be identical to the ADSL variable."
    },
    {
      "rule_id": "CR06",
      "type": "identity",
      "description": "SITEID must be identical to the ADSL variable."
    },
    {
      "rule_id": "CR07",
      "type": "identity",
      "description": "SEX must be identical to ADSL.SEX."
    },
    {
      "rule_id": "CR08",
      "type": "identity",
      "description": "RACE must be identical to ADSL.RACE (may categorize differently if analysis demands)."
    },
    {
      "rule_id": "CR09",
      "type": "one_to_one",
      "description": "If both a character variable and its numeric counterpart are present and both populated on a row, there must be a one-to-one mapping between the 2 variables on all rows within the scope on which both variables are populated."
    },
    {
      "rule_id": "CR10",
      "type": "value_constraint",
      "description": "EVID=1 for dosing events, EVID=0 for observations."
    },
    {
      "rule_id": "CR11",
      "type": "value_constraint",
      "description": "MDV=1 when DV is missing for observation or when EVID=1. Controlled terms: 0, 1."
    },
    {
      "rule_id": "CR12",
      "type": "value_constraint",
      "description": "DV is a copy of AVAL."
    },
    {
      "rule_id": "CR13",
      "type": "value_constraint",
      "description": "AMT is only populated on dosing records."
    },
    {
      "rule_id": "CR14",
      "type": "value_constraint",
      "description": "BLQFL set to Y when the analysis value is below the limit of quantification. Controlled terms: N, Y."
    },
    {
      "rule_id": "CR15",
      "type": "value_constraint",
      "description": "ALQFL set to Y when the analysis value is above the limit of quantification. Controlled terms: N, Y."
    },
    {
      "rule_id": "CR16",
      "type": "conditional",
      "description": "PART is required when study has more than 1 part (e.g., part A dose escalation and part B dose evaluation)."
    },
    {
      "rule_id": "CR17",
      "type": "one_to_one",
      "description": "COHORTC must have a one-to-one mapping to COHORT."
    },
    {
      "rule_id": "CR18",
      "type": "one_to_one",
      "description": "ROUTEN is derived from ROUTE as one-on-one unique match."
    },
    {
      "rule_id": "CR19",
      "type": "one_to_one",
      "description": "ACYCLEC is derived from ACYCLE as one-on-one unique match."
    },
    {
      "rule_id": "CR20",
      "type": "derivation",
      "description": "AFRLT is derived from (ADTM of the current event/record) - (ADTM of the first dosing event/record of the subject). Could be negative."
    },
    {
      "rule_id": "CR21",
      "type": "derivation",
      "description": "APRLT is derived from (ADTM of the current event/record) - (ADTM of the previous dosing event/record of the subject)."
    },
    {
      "rule_id": "CR22",
      "type": "naming",
      "description": "If SDTM character variables are converted to numeric variables, they should be named as they are in the SDTM with an 'N' suffix added."
    },
    {
      "rule_id": "CR23",
      "type": "naming",
      "description": "Dataset should use ADPPK as a prefix (recommended, not required). Other relevant information can be used in the dataset name (e.g., ADPPKxyz)."
    },
    {
      "rule_id": "CR24",
      "type": "structural",
      "description": "ADPPK is of Class BASIC DATA STRUCTURE, SubClass POPULATION PHARMACOKINETIC ANALYSIS."
    },
    {
      "rule_id": "CR25",
      "type": "keys",
      "description": "Dataset keys are USUBJID, AFRLT (Actual Rel Time from First Dose), DVID, EVID (Event ID)."
    },
    {
      "rule_id": "CR26",
      "type": "covariate_convention",
      "description": "Covariates follow suffix conventions: <COV> for time-varying, <COV>BL for baseline, <COV>N for numeric version of categorical covariate (one-to-one with <COV>), <COV>I for imputed values, <COV>GRy for grouping covariates."
    },
    {
      "rule_id": "CR27",
      "type": "derivation",
      "description": "RATE is calculated as AMT/DOSEDUR."
    },
    {
      "rule_id": "CR28",
      "type": "label_convention",
      "description": "Variable units should be specified in the variable label."
    },
    {
      "rule_id": "CR29",
      "type": "label_convention",
      "description": "DOSEDUR and RATE labels should contain the unit of time or unit."
    },
    {
      "rule_id": "CR30",
      "type": "missing_values",
      "description": "Missing values may be specifically coded depending on the tool (e.g., -99), which would be described as a nonvalid value in the metadata."
    },
    {
      "rule_id": "CR31",
      "type": "missing_values",
      "description": "Handling of missing values must be clearly documented in the dataset specifications, SAP, or PAP."
    },
    {
      "rule_id": "CR32",
      "type": "missing_values",
      "description": "Imputed date/time records, imputed clock-time records, and imputed amount records should be flagged."
    },
    {
      "rule_id": "CR33",
      "type": "source",
      "description": "When identifying the source dataset for a variable, the immediate predecessor variable is used per ADaM v2.1."
    },
    {
      "rule_id": "CR34",
      "type": "source",
      "description": "All data sources used are to be indicated and provided as supporting information."
    },
    {
      "rule_id": "CR35",
      "type": "derivation",
      "description": "ADT and related variables represent start date and time for dosing or interval sample collection; AENDT and related variables represent end date and time."
    },
    {
      "rule_id": "CR36",
      "type": "conditional",
      "description": "If analysis needs require a derived age that does not match ADSL.AGE, then AAGE (Analysis Age) must be added."
    }
  ]
}
